Folder: hztRepo1/数据/xrd/20230405

File: cnts-fe2o3.txt
10.0000   43
10.2998   46
10.5998   52
10.8998   40
11.1998   34
11.4998   35
11.7998   32
12.0998   52
12.3998   30
12.6998   34
12.9998   19
13.2998   32
13.5998   23
13.8998   28
14.1998   47
14.4998   33
14.7998   20
15.0998   32
15.3998   27
15.6998   24
15.9998   32
16.2998   27
16.5998   27
16.8998   31
17.1998   34
17.4998   29
17.7998   30
18.0998   31
18.3998   35
18.6998   28
18.9998   30
19.2998   25
19.5998   23
19.8998   24
20.1996   21
20.4996   19
20.7996   32
21.0996   22
21.3996   32
21.6996   40
21.9996   38
22.2996   25
22.5996   31
22.8996   42
23.1996   38
23.4996   34
23.7996   49
24.0996   55
24.3996   82
24.6996   84
24.9996   84
25.2996   119
25.5996   127
25.8996   134
26.1996   138
26.4996   117
26.7996   110
27.0996   81
27.3996   76
27.6996   84
27.9996   80
28.2996   65
28.5996   65
28.8996   63
29.1996   51
29.4996   42
29.7996   44
30.0994   26
30.3994   39
30.6994   60
30.9994   52
31.2994   41
31.5994   42
31.8994   45
32.1994   49
32.4994   48
32.7994   44
33.0994   85
33.3994   104
33.6994   58
33.9994   52
34.2994   48
34.5994   40
34.8994   41
35.1994   50
35.4994   91
35.7994   146
36.0994   134
36.3994   93
36.6994   62
36.9994   73
37.2994   44
37.5994   33
37.8994   25
38.1994   30
38.4994   17
38.7994   26
39.0994   35
39.3994   35
39.6994   39
39.9992   28
40.2992   34
40.5992   30
40.8992   43
41.1992   48
41.4992   37
41.7992   28
42.0992   26
42.3992   35
42.6992   30
42.9992   40
43.2992   30
43.5992   29
43.8992   34
44.1992   31
44.4992   26
44.7992   19
45.0992   23
45.3992   11
45.6992   24
45.9992   34
46.2992   23
46.5992   25
46.8992   35
47.1992   26
47.4992   28
47.7992   19
48.0992   26
48.3992   32
48.6992   25
48.9992   30
49.2992   42
49.5992   38
49.8991   34
50.1990   25
50.4990   28
50.7990   17
51.0990   26
51.3990   21
51.6990   20
51.9990   18
52.2990   26
52.5990   23
52.8990   31
53.1990   30
53.4990   26
53.7990   32
54.0990   42
54.3990   47
54.6990   37
54.9990   30
55.2990   22
55.5990   22
55.8990   36
56.1990   44
56.4990   59
56.7990   58
57.0990   42
57.3990   29
57.6990   26
57.9990   27
58.2990   30
58.5990   25
58.8990   20
59.1990   31
59.4990   24
59.7990   20
60.0988   24
60.3988   37
60.6988   21
60.9988   30
61.2988   26
61.5988   18
61.8988   20
62.1988   45
62.4988   35
62.7988   34
63.0988   42
63.3988   29
63.6988   26
63.9988   33
64.2988   43
64.5988   33
64.8988   35
65.1988   32
65.4988   27
65.7988   18
66.0988   20
66.3988   19
66.6988   17
66.9988   19
67.2988   19
67.5988   12
67.8988   17
68.1988   26
68.4988   14
68.7988   16
69.0988   11
69.3988   23
69.6988   23
69.9988   15
70.2986   18
70.5986   9
70.8986   18
71.1986   16
71.4986   9
71.7986   6
72.0986   19
72.3986   16
72.6986   20
72.9986   12
73.2986   16
73.5986   11
73.8986   10
74.1986   7
74.4986   13
74.7986   20
75.0986   18
75.3986   11
75.6986   19
75.9986   8
76.2986   14
76.5986   11
76.8986   10
77.1986   14
77.4986   19
77.7986   16
78.0986   14
78.3986   12
78.6986   17
78.9986   17
79.2986   14
79.5986   11
79.8986   16
80.1985   15
80.4984   24
80.7984   12
81.0984   17
81.3984   13
81.6984   6
81.9984   14
82.2984   11
82.5984   10
82.8984   14
83.1984   12
83.4984   9
83.7984   14
84.0984   12
84.3984   15
84.6984   17
84.9984   10
85.2984   25
85.5984   18
85.8984   15
86.1984   14
86.4984   9
86.7984   12
87.0984   19
87.3984   16
87.6984   15
87.9984   13
88.2984   21
88.5984   12
88.8984   17
89.1984   9
89.4984   11
89.7984   9
89.9984   12

File: cnts.txt
10.0000   111
10.2998   113
10.5998   102
10.8998   80
11.1998   88
11.4998   100
11.7998   98
12.0998   92
12.3998   104
12.6998   85
12.9998   72
13.2998   103
13.5998   92
13.8998   93
14.1998   77
14.4998   78
14.7998   69
15.0998   76
15.3998   88
15.6998   86
15.9998   76
16.2998   77
16.5998   86
16.8998   72
17.1998   85
17.4998   94
17.7998   86
18.0998   83
18.3998   100
18.6998   100
18.9998   91
19.2998   95
19.5998   102
19.8998   109
20.1996   111
20.4996   104
20.7996   121
21.0996   109
21.3996   143
21.6996   125
21.9996   171
22.2996   135
22.5996   178
22.8996   184
23.1996   229
23.4996   227
23.7996   249
24.0996   314
24.3996   322
24.6996   415
24.9996   483
25.2996   476
25.5996   554
25.8996   532
26.1996   511
26.4996   437
26.7996   321
27.0996   274
27.3996   226
27.6996   169
27.9996   155
28.2996   146
28.5996   122
28.8996   113
29.1996   97
29.4996   97
29.7996   83
30.0996   99
30.3995   97
30.6994   103
30.9994   87
31.2994   106
31.5994   85
31.8994   80
32.1994   78
32.4994   80
32.7994   72
33.0994   72
33.3994   76
33.6994   69
33.9994   91
34.2994   73
34.5994   59
34.8994   47
35.1994   54
35.4994   79
35.7994   65
36.0994   72
36.3994   62
36.6994   54
36.9994   59
37.2994   56
37.5994   54
37.8994   47
38.1994   43
38.4994   53
38.7994   50
39.0994   56
39.3994   50
39.6994   56
39.9994   49
40.2994   54
40.5992   43
40.8992   58
41.1992   71
41.4992   62
41.7992   75
42.0992   94
42.3992   80
42.6992   119
42.9992   97
43.2992   104
43.5992   121
43.8992   81
44.1992   76
44.4992   68
44.7992   84
45.0992   76
45.3992   76
45.6992   69
45.9992   71
46.2992   73
46.5992   71
46.8992   61
47.1992   66
47.4992   53
47.7992   65
48.0992   59
48.3992   61
48.6992   49
48.9992   53
49.2992   53
49.5992   58
49.8992   66
50.1992   60
50.4990   60
50.7990   49
51.0990   49
51.3990   62
51.6990   42
51.9990   58
52.2990   62
52.5990   66
52.8990   64
53.1990   78
53.4990   60
53.7990   62
54.0990   54
54.3990   59
54.6990   59
54.9990   39
55.2990   42
55.5990   60
55.8990   45
56.1990   50
56.4990   52
56.7990   65
57.0990   45
57.3990   52
57.6990   51
57.9990   43
58.2990   44
58.5990   58
58.8990   38
59.1990   45
59.4990   39
59.7990   39
60.0990   42
60.3990   43
60.6988   39
60.9988   53
61.2988   33
61.5988   40
61.8988   42
62.1988   39
62.4988   42
62.7988   47
63.0988   51
63.3988   41
63.6988   54
63.9988   44
64.2988   43
64.5988   43
64.8988   45
65.1988   57
65.4988   48
65.7988   48
66.0988   53
66.3988   45
66.6988   43
66.9988   35
67.2988   46
67.5988   32
67.8988   27
68.1988   38
68.4988   29
68.7988   30
69.0988   31
69.3988   34
69.6988   45
69.9988   29
70.2988   33
70.5986   47
70.8986   37
71.1986   42
71.4986   34
71.7986   33
72.0986   34
72.3986   42
72.6986   28
72.9986   38
73.2986   32
73.5986   45
73.8986   26
74.1986   34
74.4986   36
74.7986   25
75.0986   30
75.3986   31
75.6986   33
75.9986   36
76.2986   37
76.5986   30
76.8986   31
77.1986   29
77.4986   45
77.7986   34
78.0986   32
78.3986   36
78.6986   48
78.9986   34
79.2986   46
79.5986   36
79.8986   30
80.1986   39
80.4985   29
80.7984   44
81.0984   32
81.3984   45
81.6984   35
81.9984   35
82.2984   28
82.5984   31
82.8984   45
83.1984   28
83.4984   31
83.7984   32
84.0984   24
84.3984   30
84.6984   33
84.9984   24
85.2984   30
85.5984   32
85.8984   32
86.1984   34
86.4984   21
86.7984   31
87.0984   27
87.3984   26
87.6984   34
87.9984   23
88.2984   26
88.5984   33
88.8984   25
89.1984   20
89.4984   34
89.7984   35
89.9984   22

File: 中间体.txt
10.0000   55
10.2998   29
10.5998   35
10.8998   40
11.1998   48
11.4998   39
11.7998   123
12.0998   598
12.3998   53
12.6998   33
12.9998   41
13.2998   28
13.5998   35
13.8998   31
14.1998   32
14.4998   27
14.7998   34
15.0998   24
15.3998   17
15.6998   21
15.9998   28
16.2998   28
16.5998   34
16.8998   138
17.1998   137
17.4998   35
17.7998   31
18.0998   19
18.3998   20
18.6998   24
18.9998   20
19.2998   19
19.5998   18
19.8998   18
20.1996   10
20.4996   8
20.7996   17
21.0996   19
21.3996   11
21.6996   14
21.9996   19
22.2996   20
22.5996   14
22.8996   15
23.1996   15
23.4996   19
23.7996   19
24.0996   29
24.3996   15
24.6996   12
24.9996   18
25.2996   16
25.5996   12
25.8996   16
26.1996   16
26.4996   35
26.7996   53
27.0996   761
27.3996   45
27.6996   32
27.9996   13
28.2996   16
28.5996   13
28.8996   15
29.1996   18
29.4996   13
29.7996   16
30.0994   9
30.3994   13
30.6994   17
30.9994   22
31.2994   21
31.5994   13
31.8994   15
32.1994   12
32.4994   6
32.7994   12
33.0994   20
33.3994   25
33.6994   14
33.9994   29
34.2994   77
34.5994   97
34.8994   26
35.1994   59
35.4994   591
35.7994   60
36.0994   17
36.3994   21
36.6994   43
36.9994   13
37.2994   9
37.5994   11
37.8994   19
38.1994   12
38.4994   26
38.7994   22
39.0994   21
39.3994   57
39.6994   70
39.9993   7
40.2992   15
40.5992   8
40.8992   29
41.1992   11
41.4992   8
41.7992   7
42.0992   5
42.3992   12
42.6992   12
42.9992   15
43.2992   100
43.5992   14
43.8992   15
44.1992   38
44.4992   18
44.7992   13
45.0992   12
45.3992   15
45.6992   6
45.9992   11
46.2992   13
46.5992   34
46.8992   226
47.1992   20
47.4992   16
47.7992   11
48.0992   7
48.3992   7
48.6992   14
48.9992   10
49.2992   21
49.5992   43
49.8992   13
50.1990   9
50.4990   10
50.7990   9
51.0990   11
51.3990   5
51.6990   13
51.9990   7
52.2990   10
52.5990   116
52.8990   31
53.1990   21
53.4990   46
53.7990   8
54.0990   35
54.3990   8
54.6990   14
54.9990   12
55.2990   11
55.5990   13
55.8990   20
56.1990   38
56.4990   244
56.7990   24
57.0990   10
57.3990   17
57.6990   12
57.9990   12
58.2990   4
58.5990   5
58.8990   2
59.1990   6
59.4990   7
59.7990   8
60.0988   6
60.3988   9
60.6988   9
60.9988   6
61.2988   96
61.5988   19
61.8988   15
62.1988   52
62.4988   36
62.7988   27
63.0988   48
63.3988   15
63.6988   13
63.9988   14
64.2988   44
64.5988   21
64.8988   67
65.1988   100
65.4988   12
65.7988   10
66.0988   10
66.3988   6
66.6988   12
66.9988   9
67.2988   12
67.5988   13
67.8988   10
68.1988   82
68.4988   71
68.7988   18
69.0988   7
69.3988   11
69.6988   4
69.9986   6
70.2986   12
70.5986   8
70.8986   11
71.1986   7
71.4986   4
71.7986   9
72.0986   29
72.3986   24
72.6986   5
72.9986   10
73.2986   7
73.5986   15
73.8986   8
74.1986   7
74.4986   8
74.7986   10
75.0986   13
75.3986   6
75.6986   7
75.9986   5
76.2986   5
76.5986   5
76.8986   9
77.1986   4
77.4986   7
77.7986   10
78.0986   32
78.3986   24
78.6986   19
78.9986   12
79.2986   5
79.5986   3
79.8985   8
80.1984   5
80.4984   10
80.7984   15
81.0984   6
81.3984   5
81.6984   3
81.9984   4
82.2984   4
82.5984   7
82.8984   11
83.1984   7
83.4984   7
83.7984   10
84.0984   13
84.3984   10
84.6984   11
84.9984   36
85.2984   10
85.5984   11
85.8984   7
86.1984   6
86.4984   6
86.7984   2
87.0984   4
87.3984   6
87.6984   8
87.9984   6
88.2984   9
88.5984   8
88.8984   12
89.1984   6
89.4984   6
89.7983   3
89.9982   6