Folder: hztRepo1/数据/xrd/望军4个xrd10分钟-03.22

File: cnt-fe3o4_Theta_2-Theta.asc
*TYPE		=  Raw
*CLASS		=  ASCII CLASS
*SAMPLE		=
*COMMENT	=
*FNAME		=  cnt-fe3o4_Theta_2-Theta.asc
*DATE		=  24-Mar-23 00:30

*GROUP_COUNT	=  1
*GONIO		=  MiniFlex 300/600, 150
*ATTACHMENT	=  Air-sensitive Sample Holder
*ASC		=  0, 0, 0.000000, 0.000000
*FILTER		=  K-beta(x1.5)
*C_MONOCHRO	=  None, 0.000000
*SLIT_NAME	=  0, IHS
*SLIT_NAME	=  1, DS
*SLIT_NAME	=  2, SS
*SLIT_NAME	=  3, RS
*COUNTER	=  D/teX Ultra2, 0
*POS_FORMAT	=  0
*SCAN_AXIS	=  2theta/theta
*MEAS_MODE	=  Continuous Scanning
*TARGET		=  29
*XRAY_CHAR	=  K-ALPHA
*WAVE_LENGTH1	=  1.54059
*WAVE_LENGTH2	=  1.54441
*THICKNESS	=  0, 0.000000
*MU		=  0, 0.000000
*SCAN_MODE	=  2theta/theta
*SPEED_DIM	=  sec./step
*XUNIT		=  deg.
*YUNIT		=  cps
*SCALE_MODE	=  1
*REP_COUNT	=  0
*SE_COUNT	=  0
*STD_MATERIAL	=  Unknown, Unknown, 0.000000, 0.000000, 0.000000, 0.000000, 0.000000, 0.000000
*LATT_CONS	=  0, Unknown, Unknown, 0.000000, 0.000000, 0.000000, 0.000000, 0.000000, 0.000000
*SEC_COUNT	=  1
*TSPEC_SIZE	=  0
*EXTRA_SIZE	=  0
*MEMO		=

*BEGIN
*GROUP		=  0
*START		=  10
*STOP		=  90
*STEP		=  0.02
*OFFSET		=  0.000000
*SPEED		=  0.0133333
*SLIT_SPEC	=  0, 10.0mm, 10, 0.000000
*SLIT_SPEC	=  1, 1.250deg, 1.25, 0.000000
*SLIT_SPEC	=  2, 8.0mm, 8, 0.000000
*SLIT_SPEC	=  3, 0.3mm, 0.3, 0.000000
*KV		=  40
*MA		=  15
*LOW		=  0.000000
*HIGH		=  0.000000
*CTEMPER	=  0, 0.000000
*CTEMPER	=  1, 0.000000
*CTEMPER	=  2, 0.000000
*PAREX		=  0, 0.000000
*PAREX		=  1, 0.000000
*PAREX		=  2, 0.000000
*PAREX		=  3, 0.000000
*PAREX		=  4, 0.000000
*PAREX		=  5, 0.000000
*PAREX		=  6, 0.000000
*PAREX		=  7, 0.000000
*PAREX		=  8, 0.000000
*PAREX		=  9, 0.000000
*PAREX		=  10, 0.000000
*PAREX		=  11, 0.000000
*PAREX		=  12, 0.000000
*PAREX		=  13, 0.000000
*PAREX		=  14, 0.000000
*PAREX		=  15, 0.000000
*FULL_SCALE	=  4500
*INDEX		=  0, 0, 0
*COUNT		=  4001
8, 8, 6, 7
8, 10, 7, 4
4, 10, 1, 4
8, 7, 13, 7
5, 6, 7, 7
8, 9, 7, 7
4, 8, 2, 7
4, 4, 8, 11
11, 9, 5, 3
9, 7, 4, 2
5, 10, 10, 6
6, 5, 7, 8
5, 11, 14, 3
10, 10, 7, 7
6, 8, 8, 12
5, 8, 7, 7
6, 6, 11, 6
15, 11, 11, 9
6, 7, 6, 8
10, 10, 11, 13
10, 10, 6, 0.000000
11, 10, 10, 13
13, 11, 14, 9
11, 9, 17, 8
12, 17, 10, 16
13, 8, 10, 9
9, 10, 9, 8
19, 14, 14, 15
14, 13, 12, 12
21, 11, 12, 16
17, 23, 18, 16
14, 15, 16, 15
17, 21, 18, 20
28, 18, 14, 20
16, 15, 14, 16
16, 28, 24, 18
21, 24, 16, 9
14, 19, 24, 22
19, 21, 21, 17
18, 11, 18, 14
29, 15, 16, 26
37, 35, 39, 50
13, 15, 15, 18
15, 23, 21, 19
16, 17, 20, 18
21, 17, 18, 16
16, 15, 14, 11
15, 15, 17, 15
17, 18, 10, 11
17, 20, 10, 14
29, 26, 15, 10
10, 15, 12, 13
11, 8, 11, 17
22, 13, 10, 12
10, 11, 10, 11
15, 8, 12, 18
19, 17, 18, 9
17, 15, 11, 8
14, 15, 12, 9
10, 9, 11, 12
14, 11, 11, 10
7, 7, 11, 5
8, 7, 5, 10
9, 11, 11, 12
10, 9, 4, 5
6, 10, 8, 8
3, 6, 8, 13
11, 6, 13, 17
9, 8, 9, 6
9, 9, 11, 8
5, 7, 6, 8
13, 3, 5, 6
13, 12, 9, 7
9, 9, 7, 6
5, 5, 2, 4
10, 9, 9, 6
7, 14, 7, 8
8, 9, 5, 2
9, 6, 12, 9
5, 11, 15, 7
4, 7, 13, 14
7, 12, 13, 7
11, 8, 7, 7
3, 4, 8, 4
8, 5, 6, 12
3, 6, 5, 7
2, 10, 5, 3
7, 8, 6, 5
9, 10, 5, 6
6, 9, 10, 3
3, 4, 8, 6
4, 4, 8, 6
4, 6, 4, 6
5, 5, 2, 5
6, 4, 5, 3
2, 3, 6, 5
6, 7, 4, 5
10, 8, 11, 6
7, 4, 4, 6
4, 4, 4, 7
6, 5, 5, 5
4, 6, 6, 5
5, 7, 6, 5
8, 5, 4, 7
4, 5, 5, 6
4, 3, 7, 2
6, 3, 3, 6
7, 5, 2, 2
7, 2, 4, 3
6, 5, 6, 8
8, 2, 5, 7
6, 6, 7, 4
2, 2, 4, 2
6, 5, 8, 6
5, 3, 4, 5
6, 6, 0.000000, 4
6, 4, 5, 4
5, 4, 5, 3
2, 9, 6, 10
3, 4, 4, 7
5, 4, 2, 6
9, 9, 8, 4
5, 3, 7, 4
7, 9, 6, 3
6, 3, 8, 9
5, 11, 6, 5
9, 8, 3, 5
6, 5, 8, 5
3, 8, 7, 6
7, 6, 10, 5
7, 6, 6, 4
9, 7, 3, 1
6, 3, 2, 6
4, 6, 5, 7
5, 5, 2, 4
8, 3, 4, 7
5, 6, 5, 4
3, 2, 4, 5
4, 4, 6, 3
5, 5, 7, 8
3, 6, 0.000000, 3
8, 1, 8, 6
2, 4, 7, 8
8, 6, 2, 6
3, 4, 2, 2
1, 5, 3, 1
7, 4, 9, 5
4, 8, 10, 10
4, 3, 2, 6
4, 6, 6, 4
5, 2, 5, 4
3, 5, 6, 2
5, 4, 2, 5
6, 4, 3, 7
2, 6, 7, 7
5, 5, 2, 3
6, 3, 5, 8
4, 8, 2, 5
6, 3, 3, 8
4, 4, 6, 6
7, 3, 3, 2
3, 3, 7, 6
7, 6, 9, 7
1, 6, 3, 7
4, 6, 6, 9
2, 4, 4, 7
5, 4, 8, 7
1, 4, 4, 7
4, 2, 3, 6
6, 3, 5, 8
2, 6, 3, 6
3, 3, 3, 3
5, 5, 3, 3
10, 4, 3, 5
6, 4, 8, 9
2, 6, 4, 5
4, 5, 7, 7
4, 3, 4, 5
3, 3, 5, 4
4, 4, 5, 3
3, 6, 7, 11
6, 5, 7, 4
7, 3, 3, 2
3, 7, 7, 3
3, 1, 4, 4
5, 4, 7, 4
1, 2, 5, 3
9, 7, 10, 4
4, 4, 6, 7
1, 4, 4, 6
5, 4, 10, 1
3, 5, 4, 7
2, 3, 4, 5
7, 5, 7, 6
4, 8, 6, 3
0.000000, 3, 3, 7
9, 7, 3, 1
5, 5, 3, 5
5, 3, 4, 5
7, 5, 6, 5
4, 7, 6, 4
5, 6, 4, 4
4, 3, 3, 6
5, 5, 2, 1
5, 6, 4, 7
5, 4, 2, 4
7, 5, 3, 7
5, 3, 5, 3
12, 4, 5, 1
3, 12, 7, 4
2, 6, 1, 5
3, 5, 9, 3
4, 6, 3, 5
3, 3, 6, 2
9, 8, 8, 5
4, 5, 8, 2
6, 2, 6, 7
2, 5, 6, 8
6, 7, 5, 6
4, 5, 4, 3
5, 5, 6, 3
3, 7, 6, 6
8, 6, 3, 2
2, 3, 4, 3
3, 4, 2, 4
4, 6, 4, 5
1, 1, 6, 3
6, 3, 4, 4
5, 4, 6, 4
2, 5, 7, 3
2, 2, 2, 3
2, 3, 3, 6
4, 2, 2, 2
3, 5, 1, 0.000000
6, 4, 7, 3
3, 6, 5, 4
2, 4, 6, 2
3, 0.000000, 3, 6
4, 3, 1, 3
1, 3, 1, 4
3, 2, 4, 1
2, 3, 1, 2
4, 3, 2, 3
0.000000, 4, 3, 8
2, 5, 2, 3
1, 6, 4, 3
5, 4, 0.000000, 1
4, 3, 5, 5
4, 0.000000, 0.000000, 2
3, 2, 4, 2
3
*END

*EOF

File: cnt-fe3o4_Theta_2-Theta.TXT
Sample
Comments
Filename	G:\ceshi\20230223\wangjun410-03.22\cnt-fe3o4_Theta_2-Theta.raw

Goniometer	MiniFlex 300/600
Attachment	Air-sensitive Sample Holder
Monochromater	None

X	0
Y	0
Z	0
10	600
10.28	600
10.56	600
10.84	225
11.12	150
11.4	375
11.68	375
11.96	150
12.24	300
12.52	375
12.8	225
13.08	450
13.36	375
13.64	300
13.92	300
14.2	525
14.48	450
14.76	450
15.04	450
15.32	450
15.6	300
15.88	600
16.16	675
16.44	450
16.72	825
17	825
17.28	825
17.56	750
17.84	525
18.12	1125
18.4	1050
18.68	1050
18.96	1050
19.24	1425
19.52	1125
19.8	1725
20.08	1125
20.36	1500
20.64	1275
20.92	1050
21.2	1200
21.48	1350
21.76	1950
22.04	1650
22.32	1575
22.6	975
22.88	1725
23.16	2925
23.44	975
23.72	1800
24	1275
24.28	1350
24.56	900
24.84	1200
25.12	1200
25.4	750
25.68	1275
25.96	1500
26.24	825
26.52	1200
26.8	975
27.08	1050
27.36	900
27.64	900
27.92	1425
28.2	900
28.48	375
28.76	825
29.04	1050
29.32	750
29.6	525
29.88	375
30.16	675
30.44	675
30.72	525
31	1125
31.28	900
31.56	600
31.84	375
32.12	825
32.4	375
32.68	525
32.96	975
33.24	600
33.52	600
33.8	375
34.08	225
34.36	525
34.64	600
34.92	975
35.2	450
35.48	825
35.76	375
36.04	750
36.32	525
36.6	600
36.88	600
37.16	375
37.44	375
37.72	450
38	900
38.28	300
38.56	150
38.84	600
39.12	300
39.4	600
39.68	600
39.96	375
40.24	375
40.52	675
40.8	225
41.08	825
41.36	525
41.64	225
41.92	450
42.2	525
42.48	525
42.76	600
43.04	75
43.32	375
43.6	300
43.88	600
44.16	675
44.44	675
44.72	300
45	300
45.28	450
45.56	525
45.84	150
46.12	375
46.4	450
46.68	600
46.96	525
47.24	75
47.52	525
47.8	450
48.08	225
48.36	450
48.64	300
48.92	525
49.2	300
49.48	225
49.76	525
50.04	450
50.32	675
50.6	375
50.88	150
51.16	300
51.44	225
51.72	300
52	0
52.28	150
52.56	300
52.84	300
53.12	600
53.4	375
53.68	450
53.96	300
54.24	375
54.52	525
54.8	225
55.08	525
55.36	450
55.64	750
55.92	75
56.2	225
56.48	375
56.76	675
57.04	300
57.32	300
57.6	75
57.88	150
58.16	225
58.44	450
58.72	525
59	225
59.28	150
59.56	300
59.84	600
60.12	300
60.4	300
60.68	375
60.96	525
61.24	225
61.52	225
61.8	450
62.08	525
62.36	300
62.64	600
62.92	375
63.2	375
63.48	300
63.76	300
64.04	375
64.32	300
64.6	375
64.88	225
65.16	450
65.44	450
65.72	600
66	150
66.28	225
66.56	600
66.84	450
67.12	150
67.4	600
67.68	450
67.96	525
68.24	525
68.52	300
68.8	300
69.08	225
69.36	900
69.64	150
69.92	300
70.2	450
70.48	75
70.76	450
71.04	300
71.32	450
71.6	525
71.88	525
72.16	300
72.44	225
72.72	675
73	300
73.28	450
73.56	600
73.84	375
74.12	150
74.4	225
74.68	225
74.96	375
75.24	300
75.52	375
75.8	375
76.08	525
76.36	150
76.64	150
76.92	525
77.2	150
77.48	600
77.76	150
78.04	300
78.32	450
78.6	375
78.88	300
79.16	450
79.44	150
79.72	525
80	600
80.28	300
80.56	225
80.84	300
81.12	300
81.4	300
81.68	225
81.96	150
82.24	300
82.52	150
82.8	225
83.08	375
83.36	450
83.64	150
83.92	150
84.2	225
84.48	225
84.76	375
85.04	0
85.32	225
85.6	225
85.88	225
86.16	300
86.44	225
86.72	225
87	375
87.28	300
87.56	150
87.84	300
88.12	150
88.4	75
88.68	225
88.96	0
89.24	75
89.52	225
89.8	300
90	225

File: cnt-s_Theta_2-Theta.asc
*TYPE		=  Raw
*CLASS		=  ASCII CLASS
*SAMPLE		=
*COMMENT	=
*FNAME		=  cnt-s_Theta_2-Theta.asc
*DATE		=  24-Mar-23 00:28

*GROUP_COUNT	=  1
*GONIO		=  MiniFlex 300/600, 150
*ATTACHMENT	=  Air-sensitive Sample Holder
*ASC		=  0, 0, 0.000000, 0.000000
*FILTER		=  K-beta(x1.5)
*C_MONOCHRO	=  None, 0.000000
*SLIT_NAME	=  0, IHS
*SLIT_NAME	=  1, DS
*SLIT_NAME	=  2, SS
*SLIT_NAME	=  3, RS
*COUNTER	=  D/teX Ultra2, 0
*POS_FORMAT	=  0
*SCAN_AXIS	=  2theta/theta
*MEAS_MODE	=  Continuous Scanning
*TARGET		=  29
*XRAY_CHAR	=  K-ALPHA
*WAVE_LENGTH1	=  1.54059
*WAVE_LENGTH2	=  1.54441
*THICKNESS	=  0, 0.000000
*MU		=  0, 0.000000
*SCAN_MODE	=  2theta/theta
*SPEED_DIM	=  sec./step
*XUNIT		=  deg.
*YUNIT		=  cps
*SCALE_MODE	=  1
*REP_COUNT	=  0
*SE_COUNT	=  0
*STD_MATERIAL	=  Unknown, Unknown, 0.000000, 0.000000, 0.000000, 0.000000, 0.000000, 0.000000
*LATT_CONS	=  0, Unknown, Unknown, 0.000000, 0.000000, 0.000000, 0.000000, 0.000000, 0.000000
*SEC_COUNT	=  1
*TSPEC_SIZE	=  0
*EXTRA_SIZE	=  0
*MEMO		=

*BEGIN
*GROUP		=  0
*START		=  10
*STOP		=  90
*STEP		=  0.02
*OFFSET		=  0.000000
*SPEED		=  0.0133333
*SLIT_SPEC	=  0, 10.0mm, 10, 0.000000
*SLIT_SPEC	=  1, 1.250deg, 1.25, 0.000000
*SLIT_SPEC	=  2, 8.0mm, 8, 0.000000
*SLIT_SPEC	=  3, 0.3mm, 0.3, 0.000000
*KV		=  40
*MA		=  15
*LOW		=  0.000000
*HIGH		=  0.000000
*CTEMPER	=  0, 0.000000
*CTEMPER	=  1, 0.000000
*CTEMPER	=  2, 0.000000
*PAREX		=  0, 0.000000
*PAREX		=  1, 0.000000
*PAREX		=  2, 0.000000
*PAREX		=  3, 0.000000
*PAREX		=  4, 0.000000
*PAREX		=  5, 0.000000
*PAREX		=  6, 0.000000
*PAREX		=  7, 0.000000
*PAREX		=  8, 0.000000
*PAREX		=  9, 0.000000
*PAREX		=  10, 0.000000
*PAREX		=  11, 0.000000
*PAREX		=  12, 0.000000
*PAREX		=  13, 0.000000
*PAREX		=  14, 0.000000
*PAREX		=  15, 0.000000
*FULL_SCALE	=  5940
*INDEX		=  0, 0, 0
*COUNT		=  4001
5, 6, 9, 6
6, 8, 8, 5
5, 7, 8, 10
7, 7, 7, 4
7, 3, 5, 7
6, 6, 7, 8
6, 5, 9, 4
5, 7, 9, 6
4, 1, 2, 5
6, 8, 8, 8
7, 9, 10, 8
5, 5, 8, 7
4, 2, 5, 5
4, 5, 6, 7
7, 8, 16, 7
11, 5, 12, 11
8, 8, 8, 8
8, 8, 15, 14
6, 11, 17, 13
6, 10, 10, 9
4, 4, 7, 6
12, 15, 10, 6
9, 10, 10, 13
9, 11, 10, 11
10, 12, 15, 10
13, 11, 11, 10
6, 11, 9, 10
15, 10, 9, 9
6, 9, 14, 19
13, 15, 18, 13
21, 19, 17, 13
11, 16, 12, 18
19, 22, 20, 20
19, 9, 19, 14
14, 19, 14, 9
22, 19, 16, 17
20, 23, 27, 13
18, 21, 25, 20
14, 10, 16, 17
13, 18, 18, 15
25, 26, 29, 28
39, 31, 37, 28
21, 22, 7, 17
27, 24, 27, 28
27, 20, 25, 17
20, 27, 28, 14
15, 22, 13, 16
15, 10, 15, 11
23, 23, 11, 18
29, 24, 29, 29
12, 18, 13, 15
10, 18, 12, 20
16, 21, 19, 15
9, 17, 9, 9
15, 20, 12, 13
28, 26, 25, 32
13, 13, 12, 9
9, 11, 11, 6
11, 9, 14, 20
18, 18, 21, 17
17, 11, 17, 9
14, 15, 8, 9
8, 8, 9, 11
5, 7, 13, 4
8, 9, 9, 8
4, 12, 8, 11
12, 9, 13, 6
19, 9, 12, 14
8, 4, 11, 10
5, 12, 9, 5
8, 6, 7, 8
5, 4, 6, 6
8, 3, 6, 4
12, 12, 10, 12
7, 10, 3, 10
8, 11, 10, 12
6, 9, 7, 6
7, 6, 3, 11
11, 12, 6, 7
9, 8, 5, 6
4, 8, 7, 7
6, 8, 9, 7
3, 9, 4, 4
5, 7, 8, 5
13, 16, 17, 9
3, 5, 10, 5
7, 4, 4, 6
6, 7, 10, 10
7, 7, 4, 4
7, 4, 1, 0.000000
4, 5, 6, 3
3, 5, 4, 8
4, 2, 3, 9
5, 6, 6, 9
4, 4, 6, 5
4, 5, 4, 6
8, 5, 5, 2
7, 4, 6, 7
5, 5, 6, 4
3, 7, 6, 5
1, 4, 7, 7
4, 4, 12, 7
6, 11, 9, 10
8, 6, 10, 7
4, 4, 2, 5
4, 4, 6, 4
4, 3, 4, 6
6, 3, 3, 4
6, 4, 4, 1
6, 6, 7, 8
5, 3, 9, 6
7, 6, 11, 8
1, 4, 4, 5
5, 4, 9, 7
5, 8, 3, 3
9, 11, 6, 1
4, 4, 5, 6
3, 9, 6, 5
12, 13, 6, 4
6, 8, 3, 8
6, 9, 7, 4
5, 4, 8, 2
3, 7, 4, 5
4, 6, 5, 9
2, 6, 3, 5
7, 3, 7, 6
4, 3, 6, 5
4, 1, 2, 4
3, 5, 5, 3
7, 8, 11, 7
6, 7, 15, 8
7, 3, 6, 4
5, 4, 6, 9
3, 4, 5, 6
6, 6, 8, 13
8, 6, 2, 6
5, 5, 4, 7
7, 10, 8, 8
4, 3, 0.000000, 3
5, 4, 6, 7
6, 4, 3, 3
6, 2, 5, 2
5, 4, 4, 5
6, 7, 3, 6
5, 7, 7, 6
2, 4, 3, 5
4, 3, 5, 3
4, 5, 7, 6
8, 7, 6, 4
3, 11, 6, 3
11, 5, 5, 6
3, 4, 3, 10
5, 5, 5, 4
9, 6, 4, 4
4, 2, 3, 5
1, 4, 3, 8
2, 4, 3, 5
5, 7, 5, 5
2, 2, 6, 4
3, 4, 6, 2
2, 2, 3, 4
5, 2, 5, 8
7, 9, 3, 6
5, 1, 1, 4
4, 3, 6, 2
3, 4, 5, 3
5, 5, 5, 5
4, 1, 6, 5
4, 3, 12, 8
5, 7, 4, 4
4, 2, 6, 3
8, 7, 4, 3
6, 2, 4, 8
4, 3, 8, 2
5, 4, 7, 7
5, 3, 5, 6
5, 7, 7, 4
6, 6, 3, 2
4, 6, 4, 2
1, 9, 4, 5
1, 2, 2, 1
0.000000, 2, 3, 7
3, 2, 1, 4
4, 4, 3, 3
3, 6, 4, 7
1, 2, 2, 2
2, 1, 1, 3
1, 7, 1, 1
3, 7, 5, 4
4, 3, 6, 2
3, 2, 3, 3
6, 4, 4, 6
2, 1, 2, 3
7, 2, 3, 3
6, 2, 3, 6
10, 8, 3, 7
6, 3, 4, 4
2, 3, 0.000000, 2
6, 2, 7, 5
4, 2, 5, 3
2, 7, 3, 3
2, 1, 0.000000, 2
0.000000, 5, 5, 4
2, 4, 1, 0.000000
3, 2, 5, 4
4, 3, 1, 2
4, 3, 6, 7
4, 2, 5, 6
3, 1, 2, 5
1, 3, 3, 1
4, 8, 6, 8
4, 6, 4, 5
7, 3, 3, 4
3, 5, 6, 5
7, 0.000000, 1, 4
4, 5, 3, 3
3, 4, 2, 1
3, 4, 2, 5
3, 3, 3, 2
3, 3, 3, 5
2, 1, 4, 5
0.000000, 4, 3, 3
2, 2, 1, 3
1, 2, 3, 7
4, 2, 5, 5
4, 7, 5, 4
1, 1, 4, 1
5, 6, 4, 4
3, 2, 3, 3
2, 3, 4, 2
2, 4, 2, 4
2, 3, 2, 4
3, 0.000000, 6, 2
6, 3, 1, 3
3, 4, 2, 2
4, 1, 2, 3
3, 3, 3, 2
4, 6, 2, 1
3, 4, 0.000000, 4
2, 3, 4, 6
4, 2, 3, 0.000000
2, 5, 4, 3
1, 6, 2, 2
1, 3, 2, 3
2, 2, 2, 1
2, 7, 2, 3
2, 2, 0.000000, 0.000000
4, 4, 3, 3
5, 4, 2, 3
1, 1, 8, 4
4
*END

*EOF

File: cnt-s_Theta_2-Theta.TXT
Sample
Comments
Filename	G:\ceshi\20230223\wangjun410-03.22\cnt-s_Theta_2-Theta.raw

Goniometer	MiniFlex 300/600
Attachment	Air-sensitive Sample Holder
Monochromater	None

X	0
Y	0
Z	0
10	375
10.28	750
10.56	450
10.84	300
11.12	750
11.4	525
11.68	300
11.96	675
12.24	375
12.52	900
12.8	900
13.08	600
13.36	675
13.64	600
13.92	750
14.2	450
14.48	525
14.76	975
15.04	750
15.32	900
15.6	300
15.88	525
16.16	900
16.44	525
16.72	900
17	975
17.28	975
17.56	750
17.84	975
18.12	1275
18.4	600
18.68	675
18.96	450
19.24	750
19.52	825
19.8	975
20.08	2100
20.36	1200
20.64	1500
20.92	1050
21.2	1650
21.48	1125
21.76	975
22.04	1200
22.32	1800
22.6	1725
22.88	2250
23.16	2775
23.44	1575
23.72	1575
24	1350
24.28	1875
24.56	1275
24.84	900
25.12	750
25.4	825
25.68	2175
25.96	2325
26.24	1275
26.52	1350
26.8	975
27.08	750
27.36	825
27.64	1875
27.92	975
28.2	975
28.48	675
28.76	825
29.04	1200
29.32	750
29.6	900
29.88	675
30.16	375
30.44	600
30.72	750
31	525
31.28	825
31.56	375
31.84	375
32.12	675
32.4	600
32.68	375
32.96	450
33.24	675
33.52	375
33.8	525
34.08	1050
34.36	525
34.64	525
34.92	750
35.2	825
35.48	825
35.76	450
36.04	1275
36.32	525
36.6	600
36.88	975
37.16	450
37.44	225
37.72	525
38	600
38.28	300
38.56	150
38.84	450
39.12	225
39.4	375
39.68	225
39.96	375
40.24	600
40.52	450
40.8	600
41.08	450
41.36	375
41.64	300
41.92	150
42.2	675
42.48	225
42.76	525
43.04	750
43.32	150
43.6	300
43.88	675
44.16	525
44.44	375
44.72	600
45	375
45.28	525
45.56	825
45.84	75
46.12	375
46.4	225
46.68	450
46.96	450
47.24	375
47.52	450
47.8	450
48.08	450
48.36	525
48.64	300
48.92	300
49.2	225
49.48	525
49.76	600
50.04	525
50.32	300
50.6	750
50.88	300
51.16	450
51.44	75
51.72	300
52	525
52.28	450
52.56	225
52.84	300
53.12	450
53.4	300
53.68	375
53.96	600
54.24	525
54.52	450
54.8	450
55.08	225
55.36	450
55.64	225
55.92	675
56.2	600
56.48	300
56.76	375
57.04	300
57.32	300
57.6	525
57.88	525
58.16	450
58.44	300
58.72	300
59	300
59.28	300
59.56	150
59.84	300
60.12	225
60.4	300
60.68	225
60.96	300
61.24	225
61.52	375
61.8	450
62.08	150
62.36	150
62.64	300
62.92	450
63.2	375
63.48	450
63.76	300
64.04	450
64.32	225
64.6	375
64.88	300
65.16	75
65.44	375
65.72	525
66	375
66.28	225
66.56	825
66.84	150
67.12	675
67.4	225
67.68	375
67.96	225
68.24	225
68.52	75
68.8	525
69.08	150
69.36	375
69.64	150
69.92	225
70.2	375
70.48	300
70.76	225
71.04	375
71.32	450
71.6	300
71.88	525
72.16	375
72.44	225
72.72	450
73	375
73.28	225
73.56	225
73.84	300
74.12	150
74.4	150
74.68	375
74.96	150
75.24	150
75.52	0
75.8	75
76.08	75
76.36	75
76.64	300
76.92	225
77.2	300
77.48	225
77.76	375
78.04	300
78.32	450
78.6	225
78.88	225
79.16	150
79.44	225
79.72	150
80	525
80.28	225
80.56	225
80.84	150
81.12	375
81.4	225
81.68	300
81.96	225
82.24	225
82.52	150
82.8	225
83.08	75
83.36	225
83.64	150
83.92	150
84.2	600
84.48	75
84.76	600
85.04	450
85.32	225
85.6	525
85.88	150
86.16	225
86.44	225
86.72	75
87	225
87.28	75
87.56	150
87.84	225
88.12	150
88.4	150
88.68	75
88.96	150
89.24	375
89.52	375
89.8	375
90	300

File: fe3o4_Theta_2-Theta.TXT
Sample
Comments
Filename	G:\ceshi\20230223\wangjun410-03.22\fe3o4_Theta_2-Theta.raw

Goniometer	MiniFlex 300/600
Attachment	Air-sensitive Sample Holder
Monochromater	None

X	0
Y	0
Z	0
10	150
10.28	600
10.56	600
10.84	75
11.12	75
11.4	525
11.68	225
11.96	375
12.24	300
12.52	675
12.8	375
13.08	0
13.36	450
13.64	300
13.92	525
14.2	375
14.48	375
14.76	450
15.04	525
15.32	450
15.6	525
15.88	375
16.16	900
16.44	525
16.72	375
17	675
17.28	600
17.56	525
17.84	750
18.12	750
18.4	750
18.68	375
18.96	900
19.24	675
19.52	600
19.8	375
20.08	750
20.36	750
20.64	900
20.92	675
21.2	750
21.48	825
21.76	900
22.04	1350
22.32	600
22.6	975
22.88	675
23.16	600
23.44	675
23.72	1350
24	825
24.28	825
24.56	825
24.84	1125
25.12	750
25.4	825
25.68	450
25.96	450
26.24	675
26.52	450
26.8	975
27.08	300
27.36	825
27.64	675
27.92	375
28.2	525
28.48	225
28.76	525
29.04	450
29.32	375
29.6	300
29.88	675
30.16	750
30.44	450
30.72	450
31	525
31.28	375
31.56	375
31.84	150
32.12	300
32.4	750
32.68	900
32.96	1275
33.24	1275
33.52	750
33.8	450
34.08	375
34.36	675
34.64	600
34.92	675
35.2	450
35.48	1125
35.76	750
36.04	750
36.32	525
36.6	750
36.88	450
37.16	300
37.44	750
37.72	300
38	525
38.28	450
38.56	525
38.84	450
39.12	600
39.4	375
39.68	225
39.96	375
40.24	450
40.52	225
40.8	450
41.08	525
41.36	150
41.64	675
41.92	300
42.2	375
42.48	375
42.76	375
43.04	300
43.32	525
43.6	225
43.88	900
44.16	225
44.44	300
44.72	450
45	450
45.28	375
45.56	450
45.84	450
46.12	150
46.4	450
46.68	150
46.96	600
47.24	375
47.52	300
47.8	450
48.08	150
48.36	675
48.64	450
48.92	525
49.2	525
49.48	825
49.76	975
50.04	450
50.32	450
50.6	525
50.88	150
51.16	150
51.44	525
51.72	450
52	375
52.28	75
52.56	300
52.84	525
53.12	75
53.4	450
53.68	675
53.96	1050
54.24	600
54.52	600
54.8	300
55.08	375
55.36	225
55.64	450
55.92	600
56.2	300
56.48	375
56.76	525
57.04	525
57.32	450
57.6	600
57.88	375
58.16	225
58.44	375
58.72	375
59	600
59.28	300
59.56	375
59.84	600
60.12	675
60.4	525
60.68	375
60.96	450
61.24	300
61.52	600
61.8	150
62.08	600
62.36	450
62.64	750
62.92	300
63.2	300
63.48	600
63.76	450
64.04	900
64.32	900
64.6	150
64.88	225
65.16	225
65.44	525
65.72	600
66	375
66.28	450
66.56	375
66.84	225
67.12	300
67.4	225
67.68	300
67.96	375
68.24	300
68.52	375
68.8	525
69.08	525
69.36	225
69.64	300
69.92	525
70.2	600
70.48	300
70.76	375
71.04	600
71.32	375
71.6	600
71.88	375
72.16	675
72.44	300
72.72	600
73	75
73.28	225
73.56	300
73.84	375
74.12	525
74.4	225
74.68	375
74.96	450
75.24	300
75.52	300
75.8	450
76.08	300
76.36	375
76.64	450
76.92	375
77.2	150
77.48	450
77.76	600
78.04	150
78.32	375
78.6	375
78.88	75
79.16	375
79.44	525
79.72	75
80	375
80.28	225
80.56	450
80.84	450
81.12	525
81.4	600
81.68	300
81.96	450
82.24	375
82.52	600
82.8	375
83.08	300
83.36	600
83.64	525
83.92	225
84.2	750
84.48	525
84.76	300
85.04	450
85.32	450
85.6	300
85.88	300
86.16	300
86.44	525
86.72	225
87	600
87.28	525
87.56	375
87.84	675
88.12	150
88.4	975
88.68	600
88.96	150
89.24	600
89.52	450
89.8	375
90	225

File: zhuyetan-fe3o4_Theta_2-Theta.TXT
Sample
Comments
Filename	G:\ceshi\20230223\wangjun410-03.22\zhuyetan-fe3o4_Theta_2-Theta.raw

Goniometer	MiniFlex 300/600
Attachment	Air-sensitive Sample Holder
Monochromater	None

X	0
Y	0
Z	0
10	450
10.28	450
10.56	300
10.84	975
11.12	375
11.4	825
11.68	150
11.96	450
12.24	450
12.52	300
12.8	150
13.08	675
13.36	450
13.64	375
13.92	375
14.2	750
14.48	450
14.76	675
15.04	375
15.32	375
15.6	300
15.88	825
16.16	750
16.44	375
16.72	675
17	975
17.28	600
17.56	600
17.84	1125
18.12	600
18.4	1050
18.68	600
18.96	675
19.24	825
19.52	825
19.8	900
20.08	825
20.36	1050
20.64	1350
20.92	525
21.2	900
21.48	1200
21.76	750
22.04	525
22.32	750
22.6	1200
22.88	975
23.16	825
23.44	750
23.72	900
24	825
24.28	450
24.56	975
24.84	750
25.12	375
25.4	600
25.68	600
25.96	450
26.24	600
26.52	375
26.8	750
27.08	450
27.36	375
27.64	675
27.92	375
28.2	600
28.48	450
28.76	300
29.04	300
29.32	675
29.6	600
29.88	1125
30.16	1275
30.44	675
30.72	300
31	525
31.28	600
31.56	375
31.84	600
32.12	375
32.4	375
32.68	525
32.96	150
33.24	525
33.52	600
33.8	450
34.08	600
34.36	375
34.64	375
34.92	525
35.2	675
35.48	2850
35.76	1125
36.04	750
36.32	300
36.6	300
36.88	975
37.16	825
37.44	600
37.72	450
38	1125
38.28	225
38.56	300
38.84	600
39.12	300
39.4	150
39.68	450
39.96	675
40.24	375
40.52	300
40.8	150
41.08	375
41.36	750
41.64	225
41.92	450
42.2	750
42.48	450
42.76	675
43.04	1425
43.32	750
43.6	525
43.88	300
44.16	300
44.44	150
44.72	450
45	300
45.28	675
45.56	375
45.84	225
46.12	675
46.4	900
46.68	600
46.96	300
47.24	450
47.52	750
47.8	525
48.08	450
48.36	300
48.64	600
48.92	825
49.2	675
49.48	300
49.76	600
50.04	225
50.32	600
50.6	225
50.88	600
51.16	300
51.44	300
51.72	300
52	675
52.28	225
52.56	300
52.84	375
53.12	375
53.4	600
53.68	300
53.96	375
54.24	300
54.52	675
54.8	450
55.08	375
55.36	675
55.64	450
55.92	150
56.2	300
56.48	600
56.76	1125
57.04	1200
57.32	375
57.6	675
57.88	150
58.16	675
58.44	450
58.72	450
59	300
59.28	600
59.56	600
59.84	225
60.12	375
60.4	600
60.68	375
60.96	375
61.24	150
61.52	300
61.8	675
62.08	675
62.36	975
62.64	1275
62.92	600
63.2	150
63.48	375
63.76	300
64.04	525
64.32	675
64.6	825
64.88	300
65.16	300
65.44	225
65.72	375
66	300
66.28	450
66.56	150
66.84	300
67.12	225
67.4	225
67.68	375
67.96	225
68.24	150
68.52	375
68.8	450
69.08	75
69.36	375
69.64	75
69.92	375
70.2	600
70.48	375
70.76	675
71.04	375
71.32	150
71.6	225
71.88	525
72.16	375
72.44	450
72.72	450
73	300
73.28	600
73.56	600
73.84	375
74.12	525
74.4	300
74.68	375
74.96	525
75.24	450
75.52	300
75.8	300
76.08	375
76.36	375
76.64	525
76.92	225
77.2	225
77.48	450
77.76	300
78.04	450
78.32	75
78.6	225
78.88	825
79.16	450
79.44	375
79.72	225
80	375
80.28	525
80.56	150
80.84	150
81.12	150
81.4	450
81.68	450
81.96	450
82.24	450
82.52	375
82.8	675
83.08	375
83.36	450
83.64	300
83.92	675
84.2	600
84.48	675
84.76	450
85.04	375
85.32	75
85.6	375
85.88	375
86.16	150
86.44	150
86.72	300
87	375
87.28	150
87.56	450
87.84	150
88.12	225
88.4	225
88.68	300
88.96	300
89.24	225
89.52	375
89.8	375
90	225